{
  "resourceType" : "Bundle",
  "id" : "313074ec-6757-4e9c-9de4-26c0411784c4",
  "type" : "searchset",
  "link" : [
    {
      "relation" : "self",
      "url" : "/fhir/Condition?_include=Condition%3Apatient&_include=Condition%3Aasserter&_include:iterate=PractitionerRole%3Aorganization&_include:iterate=PractitionerRole%3Apractitioner&_include:iterate=Patient%3Aorganization&patient:Patient.organization:Organization.identifier=https%3A%2F%2Fwww.ehealth.fgov.be%2Fstandards%2Ffhir%2Fcore%2FNamingSystem%2Fnihdi%7C71029041&_AMARON_tracing_payload=true&patient:Patient.identifier=https%3A%2F%2Fwww.ehealth.fgov.be%2Fstandards%2Ffhir%2Fcore%2FNamingSystem%2Fssin%7C01051399657&_AMARON_tracing=true"
    },
    {
      "relation" : "traceTree",
      "url" : "/fhir/trace-tree/0fee7867-bdf1-474d-9926-51323ba132b6"
    }
  ],
  "entry" : [
    {
      "fullUrl" : "https://vcozofhirt.internal.uzgent.be/fhirstation-rest/api/fhir/Condition/ZgpLh3P.lN1sxpn.888",
      "resource" : {
        "resourceType" : "Condition",
        "id" : "ZgpLh3P.lN1sxpn.888",
        "meta" : {
          "versionId" : "6",
          "lastUpdated" : "2024-05-16T09:46:59.101+02:00",
          "source" : "https://fhir-ns.amaronhealthcare.com/id/nihdi/71029041#PArSFjAZ3DywpeUt",
          "profile" : [
            "https://www.ehealth.fgov.be/standards/fhir/core-clinical/StructureDefinition/be-problem"
          ]
        },
        "identifier" : [
          {
            "system" : "https://fhir-ns.amaronhealthcare.com/id/local-condition-identifier",
            "value" : "71029041-B-PR-Case1"
          }
        ],
        "clinicalStatus" : {
          "coding" : [
            {
              "system" : "http://terminology.hl7.org/CodeSystem/condition-clinical",
              "code" : "active",
              "display" : "Active"
            }
          ]
        },
        "category" : [
          {
            "coding" : [
              {
                "system" : "https://fhir-ns.amaronhealthcare.com/id/local-condition-category",
                "code" : "diagnosis"
              }
            ]
          }
        ],
        "code" : {
          "coding" : [
            {
              "system" : "http://snomed.info/sct",
              "code" : "44054006",
              "display" : "diabetes mellitus type 2"
            }
          ],
          "text" : "diabetes mellitus type 2"
        },
        "bodySite" : [
          {
            "coding" : [
              {
                "system" : "http://snomed.info/sct",
                "code" : "278001007",
                "display" : "niet relevant"
              }
            ],
            "text" : "niet relevant"
          }
        ],
        "subject" : {
          "reference" : "Patient/ZgpLh3P.lN1sxpn.82",
          "display" : "TestShiftB Carmen"
        },
        "recordedDate" : "2024-04-22T00:00:00+02:00",
        "recorder" : {
          "reference" : "PractitionerRole/ZgpLh3P.lN1sxpn.866",
          "display" : "AZ Sint-Lucas Gent - Wauters Anne"
        },
        "note" : [
          {
            "text" : "PR-Case 1 - opmerkingen"
          }
        ]
      },
      "search" : {
        "mode" : "match"
      }
    },
    {
      "fullUrl" : "https://vcozofhirt.internal.uzgent.be/fhirstation-rest/api/fhir/Condition/ZgpLh3P.lN1sxpn.6858",
      "resource" : {
        "resourceType" : "Condition",
        "id" : "ZgpLh3P.lN1sxpn.6858",
        "meta" : {
          "versionId" : "1",
          "lastUpdated" : "2024-11-15T15:01:05.138+01:00",
          "source" : "https://fhir-ns.amaronhealthcare.com/id/nihdi/71029041#DKGvOiyYWq5aVnk6",
          "profile" : [
            "https://www.ehealth.fgov.be/standards/fhir/core-clinical/StructureDefinition/be-problem"
          ]
        },
        "identifier" : [
          {
            "system" : "https://fhir-ns.amaronhealthcare.com/id/local-condition-identifier",
            "value" : "90188963"
          }
        ],
        "clinicalStatus" : {
          "coding" : [
            {
              "system" : "http://terminology.hl7.org/CodeSystem/condition-clinical",
              "code" : "active"
            }
          ]
        },
        "verificationStatus" : {
          "coding" : [
            {
              "system" : "http://terminology.hl7.org/CodeSystem/condition-ver-status",
              "code" : "confirmed",
              "display" : "confirmed"
            }
          ]
        },
        "category" : [
          {
            "coding" : [
              {
                "system" : "http://terminology.hl7.org/CodeSystem/condition-category",
                "code" : "encounter-diagnosis",
                "display" : "Encounter Diagnosis"
              },
              {
                "system" : "https://www.ehealth.fgov.be/standards/fhir/core-clinical/CodeSystem/be-cs-problem-category",
                "code" : "diagnosis",
                "display" : "Diagnose"
              }
            ]
          }
        ],
        "code" : {
          "coding" : [
            {
              "system" : "http://terminology.hl7.org/CodeSystem/v2-SNOMED CT",
              "code" : "44054006",
              "display" : "diabetes mellitus type 2"
            }
          ],
          "text" : "diabetes mellitus type 2"
        },
        "subject" : {
          "reference" : "Patient/ZgpLh3P.lN1sxpn.82",
          "display" : "Testshiftb Carmen"
        },
        "recorder" : {
          "reference" : "PractitionerRole/ZgpLh3P.lN1sxpn.6857",
          "display" : "AZ Sint-Lucas Gent"
        },
        "note" : [
          {
            "text" : "PR-Case 1 - opmerking"
          }
        ]
      },
      "search" : {
        "mode" : "match"
      }
    },
    {
      "fullUrl" : "https://vcozofhirt.internal.uzgent.be/fhirstation-rest/api/fhir/Patient/ZgpLh3P.lN1sxpn.82",
      "resource" : {
        "resourceType" : "Patient",
        "id" : "ZgpLh3P.lN1sxpn.82",
        "meta" : {
          "versionId" : "9",
          "lastUpdated" : "2024-11-21T08:00:35.391+01:00",
          "source" : "https://fhir-ns.amaronhealthcare.com/id/nihdi/71029041#ELX7oVB6aVT0I0d5",
          "profile" : [
            "https://www.ehealth.fgov.be/standards/fhir/core/StructureDefinition/be-patient"
          ],
          "tag" : [
            {
              "system" : "https://fhir-ns.amaronhealthcare.com/id/tag",
              "code" : "PATIENT_PRESENT",
              "display" : "The patient is present in the hospital"
            }
          ]
        },
        "text" : {
          "status" : "generated",
          "div" : "<div xmlns=\"http://www.w3.org/1999/xhtml\"><div class=\"hapiHeaderText\">Carmen <b>TESTSHIFTB </b></div><table class=\"hapiPropertyTable\"><tbody><tr><td>Identifier</td><td>0105135007</td></tr><tr><td>Address</td><td><span>Groenebriel 1 </span><br/><span>GENT </span><span>B </span></td></tr><tr><td>Date of birth</td><td><span>13 mei 2001</span></td></tr></tbody></table></div>"
        },
        "identifier" : [
          {
            "use" : "usual",
            "type" : {
              "coding" : [
                {
                  "system" : "http://terminology.hl7.org/CodeSystem/v2-0203",
                  "code" : "MR"
                }
              ]
            },
            "system" : "https://fhir-ns.amaronhealthcare.com/id/local-patient-identifier",
            "value" : "0105135007"
          },
          {
            "use" : "official",
            "type" : {
              "coding" : [
                {
                  "system" : "http://terminology.hl7.org/CodeSystem/v2-0203",
                  "code" : "SB",
                  "display" : "Social Beneficiary Identifier"
                }
              ]
            },
            "system" : "https://www.ehealth.fgov.be/standards/fhir/core/NamingSystem/ssin",
            "value" : "01051399657"
          }
        ],
        "active" : true,
        "name" : [
          {
            "use" : "official",
            "family" : "Testshiftb",
            "given" : [
              "Carmen"
            ]
          }
        ],
        "telecom" : [
          {
            "system" : "phone",
            "value" : "09 224 61 11",
            "use" : "home"
          },
          {
            "system" : "email",
            "value" : "dummy@cozo.be",
            "use" : "home"
          }
        ],
        "gender" : "female",
        "birthDate" : "2001-05-13",
        "deceasedBoolean" : false,
        "address" : [
          {
            "use" : "home",
            "type" : "both",
            "text" : "Groenebriel 1, 9000 GENT (B)",
            "line" : [
              "Groenebriel 1"
            ],
            "city" : "GENT",
            "postalCode" : "9000",
            "country" : "B"
          }
        ],
        "maritalStatus" : {
          "coding" : [
            {
              "system" : "http://terminology.hl7.org/CodeSystem/v3-MaritalStatus",
              "code" : "U"
            }
          ]
        },
        "managingOrganization" : {
          "reference" : "Organization/ZgpLh3P.lN1sxpn.336",
          "display" : "AZ Sint-Lucas Gent"
        }
      },
      "search" : {
        "mode" : "include"
      }
    },
    {
      "fullUrl" : "https://vcozofhirt.internal.uzgent.be/fhirstation-rest/api/fhir/Organization/ZgpLh3P.lN1sxpn.336",
      "resource" : {
        "resourceType" : "Organization",
        "id" : "ZgpLh3P.lN1sxpn.336",
        "meta" : {
          "versionId" : "2",
          "lastUpdated" : "2025-02-10T10:05:42.879+01:00",
          "source" : "#O87xNs3vbLJ84v4D",
          "profile" : [
            "https://www.ehealth.fgov.be/standards/fhir/core/StructureDefinition/be-organization"
          ]
        },
        "identifier" : [
          {
            "use" : "usual",
            "type" : {
              "coding" : [
                {
                  "system" : "http://terminology.hl7.org/CodeSystem/v2-0203",
                  "code" : "NPI",
                  "display" : "National provider identifier"
                }
              ]
            },
            "system" : "https://www.ehealth.fgov.be/standards/fhir/core/NamingSystem/nihdi",
            "value" : "71029041"
          }
        ],
        "name" : "AZ Sint-Lucas Gent",
        "telecom" : [
          {
            "system" : "phone",
            "value" : "09 224 61 11"
          },
          {
            "system" : "email",
            "value" : "info@azstlucas.be"
          }
        ],
        "address" : [
          {
            "line" : [
              "Groenebriel 1"
            ],
            "city" : "Gent",
            "postalCode" : "9000",
            "country" : "BEL"
          }
        ]
      },
      "search" : {
        "mode" : "include"
      }
    }
  ]
}
